subjCode,workerId,assignmentId,hitId,pic1,pic2,country1,country2,expTimer,response,trial_number,rt
subjCode,workerId,assignmentId,hitId,anvil,hotdog,unspecified,unspecified,4.293,5,1,2477
subjCode,workerId,assignmentId,hitId,anvil,strawberry,unspecified,unspecified,5.588,6,2,1284
subjCode,workerId,assignmentId,hitId,anvil,weddingcake,unspecified,unspecified,6.547,7,3,952
subjCode,workerId,assignmentId,hitId,apricot,tennisball,unspecified,unspecified,8.054,6,4,1501
subjCode,workerId,assignmentId,hitId,artichoke,baseball,unspecified,unspecified,8.723,5,5,662
subjCode,workerId,assignmentId,hitId,artichoke,cherries,unspecified,unspecified,9.37,4,6,640
subjCode,workerId,assignmentId,hitId,banana,blueberries,unspecified,unspecified,10.035,3,7,660
subjCode,workerId,assignmentId,hitId,banana,frog,unspecified,unspecified,10.592,2,8,553
subjCode,workerId,assignmentId,hitId,banana,noentrysign,unspecified,unspecified,33.389,1,9,22790
subjCode,workerId,assignmentId,hitId,baseball,bear,unspecified,unspecified,33.407,2,10,8
subjCode,workerId,assignmentId,hitId,baseball,garlic,unspecified,unspecified,33.957,4,11,539
subjCode,workerId,assignmentId,hitId,baseball,potato,unspecified,unspecified,34.262,5,12,295
subjCode,workerId,assignmentId,hitId,baseball,sideroadsign,unspecified,unspecified,34.537,6,13,267
subjCode,workerId,assignmentId,hitId,baseballmitt,driedcorn,unspecified,unspecified,34.827,7,14,283
subjCode,workerId,assignmentId,hitId,baseballmitt,snowflake,unspecified,unspecified,35.225,3,15,392
subjCode,workerId,assignmentId,hitId,basketball,wreath,unspecified,unspecified,35.419,4,16,188
subjCode,workerId,assignmentId,hitId,bear,cherries,unspecified,unspecified,35.549,5,17,123
subjCode,workerId,assignmentId,hitId,bear,corncob,unspecified,unspecified,36.214,7,18,654
subjCode,workerId,assignmentId,hitId,bear,smokedetector,unspecified,unspecified,36.744,3,19,521
subjCode,workerId,assignmentId,hitId,anvil,eggplant,unspecified,unspecified,7.349,3,1,6287
subjCode,workerId,assignmentId,hitId,anvil,iguana,unspecified,unspecified,8.087,4,2,728
subjCode,workerId,assignmentId,hitId,apricot,carrot,unspecified,unspecified,23.917,6,3,15821
subjCode,workerId,assignmentId,hitId,apricot,schoolbus,unspecified,unspecified,27.46,4,4,3533
subjCode,workerId,assignmentId,hitId,anvil,cardinal,unspecified,unspecified,17.703,2,1,16356
subjCode,workerId,assignmentId,hitId,anvil,television,unspecified,unspecified,18.215,2,2,494
subjCode,workerId,assignmentId,hitId,apricot,blueberries,unspecified,unspecified,18.72,2,3,486
subjCode,workerId,assignmentId,hitId,artichoke,avocado,unspecified,unspecified,19.18,2,4,450
subjCode,workerId,assignmentId,hitId,artichoke,banana,unspecified,unspecified,19.648,2,5,451
subjCode,workerId,assignmentId,hitId,artichoke,television,unspecified,unspecified,23.212,2,6,3534
subjCode,workerId,assignmentId,hitId,avocado,banana,unspecified,unspecified,23.571,2,7,346
subjCode,workerId,assignmentId,hitId,avocado,fox,unspecified,unspecified,24.417,2,8,834
subjCode,workerId,assignmentId,hitId,avocado,peapod,unspecified,unspecified,25.047,2,9,617
subjCode,workerId,assignmentId,hitId,avocado,turtle,unspecified,unspecified,25.432,2,10,374
subjCode,workerId,assignmentId,hitId,banana,cigar,unspecified,unspecified,25.952,2,11,508
subjCode,workerId,assignmentId,hitId,baseball,strawberry,unspecified,unspecified,27.227,3,12,1259
subjCode,workerId,assignmentId,hitId,anvil,avocado,unspecified,unspecified,58.356,3,1,56441
subjCode,workerId,assignmentId,hitId,anvil,strawberry,unspecified,unspecified,97.214,1,2,38835
subjCode,workerId,assignmentId,hitId,anvil,tire,unspecified,unspecified,110.185,1,3,12958
subjCode,workerId,assignmentId,hitId,anvil,banana,unspecified,unspecified,86.761,1,1,86119
subjCode,workerId,assignmentId,hitId,anvil,baseball,unspecified,unspecified,99.584,1,2,12808
subjCode,workerId,assignmentId,hitId,anvil,rubberducky,unspecified,unspecified,117.625,1,3,18026
subjCode,workerId,assignmentId,hitId,artichoke,bison,unspecified,unspecified,175.7,1,4,58065
subjCode,workerId,assignmentId,hitId,anvil,stocking,unspecified,unspecified,1.924,2,1,1185
subjCode,workerId,assignmentId,hitId,anvil,bear,unspecified,unspecified,1.456,1,1,669
subjCode,workerId,assignmentId,hitId,anvil,rhinoceros,unspecified,unspecified,12.377,1,1,667
subjCode,workerId,assignmentId,hitId,anvil,lime,unspecified,unspecified,11.6,1,1,1165
subjCode,workerId,assignmentId,hitId,anvil,lion,unspecified,unspecified,6.184,1,1,4290
subjCode,workerId,assignmentId,hitId,anvil,firetruck,unspecified,unspecified,1.362,1,1,490
subjCode,workerId,assignmentId,hitId,artichoke,basketball,unspecified,unspecified,2.804,1,2,925
subjCode,workerId,assignmentId,hitId,artichoke,chick,unspecified,unspecified,4.127,1,3,809
subjCode,workerId,assignmentId,hitId,avocado,grapefruithalves,unspecified,unspecified,5.574,2,4,934
subjCode,workerId,assignmentId,hitId,avocado,tooth,unspecified,unspecified,6.482,3,5,394
subjCode,workerId,assignmentId,hitId,banana,blueberries,unspecified,unspecified,7.023,3,6,18
subjCode,workerId,assignmentId,hitId,banana,greekcolumn,unspecified,unspecified,7.781,3,7,240
subjCode,workerId,assignmentId,hitId,baseball,celery,unspecified,unspecified,8.358,3,8,58
subjCode,workerId,assignmentId,hitId,anvil,eggplant,unspecified,unspecified,1.945,1,1,998
subjCode,workerId,assignmentId,hitId,anvil,kiwihalf,unspecified,unspecified,3.929,1,2,1474
subjCode,workerId,assignmentId,hitId,anvil,rhinoceros,unspecified,unspecified,4.964,2,3,521
subjCode,workerId,assignmentId,hitId,anvil,binoculars,unspecified,unspecified,2.33,1,1,665
subjCode,workerId,assignmentId,hitId,apricot,blueberries,unspecified,unspecified,3.226,2,2,371
subjCode,workerId,assignmentId,hitId,apricot,greenbeans,unspecified,unspecified,4.201,4,3,458
subjCode,workerId,assignmentId,hitId,artichoke,smokedetector,unspecified,unspecified,5.199,3,4,479
subjCode,workerId,assignmentId,hitId,avocado,handicappedparking,unspecified,unspecified,6.864,2,5,1148
subjCode,workerId,assignmentId,hitId,avocado,polarbear,unspecified,unspecified,58.946,1,6,51564
subjCode,workerId,assignmentId,hitId,avocado,tooth,unspecified,unspecified,60.327,2,7,859
subjCode,workerId,assignmentId,hitId,banana,firemanhat,unspecified,unspecified,61.683,3,8,843
subjCode,workerId,assignmentId,hitId,banana,greekcolumn,unspecified,unspecified,62.585,3,9,386
subjCode,workerId,assignmentId,hitId,banana,tiger,unspecified,unspecified,63.497,4,10,396
subjCode,workerId,assignmentId,hitId,baseball,greekcolumn,unspecified,unspecified,64.67,5,11,651
subjCode,workerId,assignmentId,hitId,baseball,moviecamera,unspecified,unspecified,65.648,3,12,462
subjCode,workerId,assignmentId,hitId,anvil,blueberries,unspecified,unspecified,1.57,1,1,634
subjCode,workerId,assignmentId,hitId,anvil,pinkflamingo,unspecified,unspecified,2.439,2,2,354
subjCode,workerId,assignmentId,hitId,artichoke,ketchup,unspecified,unspecified,3.346,3,3,395
subjCode,workerId,assignmentId,hitId,avocado,firemanhat,unspecified,unspecified,4.244,4,4,376
subjCode,workerId,assignmentId,hitId,avocado,fox,unspecified,unspecified,4.943,4,5,185
subjCode,workerId,assignmentId,hitId,avocado,lime,unspecified,unspecified,5.773,3,6,318
subjCode,workerId,assignmentId,hitId,avocado,penguin,unspecified,unspecified,6.776,2,7,481
subjCode,workerId,assignmentId,hitId,avocado,schoolbus,unspecified,unspecified,7.738,1,8,451
subjCode,workerId,assignmentId,hitId,banana,hotdog,unspecified,unspecified,8.68,4,9,426
subjCode,workerId,assignmentId,hitId,baseball,cauliflower,unspecified,unspecified,9.22,4,10,22
subjCode,workerId,assignmentId,hitId,baseball,piano,unspecified,unspecified,10.286,6,11,541
subjCode,workerId,assignmentId,hitId,baseball,tooth,unspecified,unspecified,11.118,7,12,317
subjCode,workerId,assignmentId,hitId,baseballmitt,peapod,unspecified,unspecified,12.586,5,13,947
subjCode,workerId,assignmentId,hitId,baseballmitt,swan,unspecified,unspecified,18.72,2,14,5617
subjCode,workerId,assignmentId,hitId,basketball,bison,unspecified,unspecified,19.565,3,15,331
subjCode,workerId,assignmentId,hitId,basketball,celery,unspecified,unspecified,20.239,4,16,151
subjCode,workerId,assignmentId,hitId,basketball,tiger,unspecified,unspecified,21.171,5,17,421
subjCode,workerId,assignmentId,hitId,bear,rhinoceros,unspecified,unspecified,21.802,6,18,117
subjCode,workerId,assignmentId,hitId,bear,rubberducky,unspecified,unspecified,22.398,7,19,77
subjCode,workerId,assignmentId,hitId,bear,television,unspecified,unspecified,24.433,7,20,1515
subjCode,workerId,assignmentId,hitId,bear,tomato,unspecified,unspecified,25.061,6,21,116
subjCode,workerId,assignmentId,hitId,bison,firehydrant,unspecified,unspecified,25.594,5,22,17
subjCode,workerId,assignmentId,hitId,bison,tire,unspecified,unspecified,26.486,3,23,377
subjCode,workerId,assignmentId,hitId,blueberries,chinesefoodcarton,unspecified,unspecified,27.227,1,24,226
subjCode,workerId,assignmentId,hitId,blueberries,penguin,unspecified,unspecified,28.126,3,25,387
subjCode,workerId,assignmentId,hitId,bulldozer,santahat,unspecified,unspecified,28.711,4,26,68
subjCode,workerId,assignmentId,hitId,bulldozer,violin,unspecified,unspecified,36.612,1,27,7378
subjCode,workerId,assignmentId,hitId,cactus,chinesefoodcarton,unspecified,unspecified,37.533,2,28,406
subjCode,workerId,assignmentId,hitId,cactus,tank,unspecified,unspecified,38.333,3,29,288
subjCode,workerId,assignmentId,hitId,camera,firehydrant,unspecified,unspecified,39.18,4,30,331
subjCode,workerId,assignmentId,hitId,camera,lime,unspecified,unspecified,40.904,5,31,1204
subjCode,workerId,assignmentId,hitId,anvil,crocodile,unspecified,unspecified,3.184,3,1,1483
subjCode,workerId,assignmentId,hitId,anvil,record,unspecified,unspecified,3.702,3,2,4
subjCode,workerId,assignmentId,hitId,apricot,driedcorn,unspecified,unspecified,4.442,4,3,227
subjCode,workerId,assignmentId,hitId,artichoke,broccoli,unspecified,unspecified,5.076,5,4,121
subjCode,workerId,assignmentId,hitId,artichoke,eggplant,unspecified,unspecified,5.822,6,5,233
subjCode,workerId,assignmentId,hitId,artichoke,hotdog,unspecified,unspecified,6.655,5,6,315
subjCode,workerId,assignmentId,hitId,avocado,bear,unspecified,unspecified,7.577,3,7,404
subjCode,workerId,assignmentId,hitId,avocado,trafficcone,unspecified,unspecified,8.208,2,8,117
subjCode,workerId,assignmentId,hitId,banana,schoolbus,unspecified,unspecified,9.398,3,9,673
subjCode,workerId,assignmentId,hitId,banana,tophat,unspecified,unspecified,10.064,4,10,132
subjCode,workerId,assignmentId,hitId,baseball,crocodile,unspecified,unspecified,10.621,5,11,45
subjCode,workerId,assignmentId,hitId,baseball,raspberry,unspecified,unspecified,11.26,6,12,112
subjCode,workerId,assignmentId,hitId,baseball,sideroadsign,unspecified,unspecified,12.89,6,13,1113
subjCode,workerId,assignmentId,hitId,baseballmitt,hotdog,unspecified,unspecified,13.514,5,14,108
subjCode,workerId,assignmentId,hitId,basketball,garlic,unspecified,unspecified,14.161,5,15,135
subjCode,workerId,assignmentId,hitId,bear,football,unspecified,unspecified,14.784,5,16,109
subjCode,workerId,assignmentId,hitId,bear,fox,unspecified,unspecified,15.499,2,17,203
subjCode,workerId,assignmentId,hitId,binoculars,bulldozer,unspecified,unspecified,16.041,3,18,28
subjCode,workerId,assignmentId,hitId,binoculars,penguin,unspecified,unspecified,16.641,4,19,83
subjCode,workerId,assignmentId,hitId,binoculars,snowflake,unspecified,unspecified,17.188,5,20,19
subjCode,workerId,assignmentId,hitId,binoculars,turtle,unspecified,unspecified,17.773,6,21,71
subjCode,workerId,assignmentId,hitId,bison,firetruck,unspecified,unspecified,18.415,7,22,126
subjCode,workerId,assignmentId,hitId,broccoli,camera,unspecified,unspecified,18.999,5,23,72
subjCode,workerId,assignmentId,hitId,broccoli,ketchup,unspecified,unspecified,19.791,7,24,260
subjCode,workerId,assignmentId,hitId,broccoli,lime,unspecified,unspecified,20.508,7,25,207
subjCode,workerId,assignmentId,hitId,broccoli,television,unspecified,unspecified,21.231,5,26,214
subjCode,workerId,assignmentId,hitId,bulldozer,garlic,unspecified,unspecified,21.913,3,27,174
subjCode,workerId,assignmentId,hitId,bulldozer,lime,unspecified,unspecified,22.756,1,28,331
subjCode,workerId,assignmentId,hitId,bulldozer,rhinoceros,unspecified,unspecified,23.649,2,29,370
subjCode,workerId,assignmentId,hitId,cactus,santahat,unspecified,unspecified,24.257,2,30,93
subjCode,workerId,assignmentId,hitId,camera,cucumber,unspecified,unspecified,24.837,1,31,65
subjCode,workerId,assignmentId,hitId,camera,noentrysign,unspecified,unspecified,25.625,2,32,269
subjCode,workerId,assignmentId,hitId,anvil,record,unspecified,unspecified,2.196,1,1,958
subjCode,workerId,assignmentId,hitId,anvil,rubberducky,unspecified,unspecified,3.417,2,2,707
subjCode,workerId,assignmentId,hitId,anvil,trumpet,unspecified,unspecified,4.696,3,3,767
subjCode,workerId,assignmentId,hitId,apricot,football,unspecified,unspecified,5.872,4,4,662
subjCode,workerId,assignmentId,hitId,apricot,raspberry,unspecified,unspecified,6.876,5,5,490
subjCode,workerId,assignmentId,hitId,artichoke,chinesefoodcarton,unspecified,unspecified,7.819,6,6,430
subjCode,workerId,assignmentId,hitId,artichoke,egg,unspecified,unspecified,8.707,7,7,373
subjCode,workerId,assignmentId,hitId,artichoke,rhinoceros,unspecified,unspecified,9.879,7,8,650
subjCode,workerId,assignmentId,hitId,artichoke,walkietalkie,unspecified,unspecified,10.663,6,9,264
subjCode,workerId,assignmentId,hitId,avocado,polarbear,unspecified,unspecified,11.406,5,10,227
subjCode,workerId,assignmentId,hitId,avocado,speaker,unspecified,unspecified,12.163,4,11,242
subjCode,workerId,assignmentId,hitId,avocado,strawberry,unspecified,unspecified,12.837,3,12,150
subjCode,workerId,assignmentId,hitId,banana,greenbeans,unspecified,unspecified,13.749,2,13,401
subjCode,workerId,assignmentId,hitId,banana,hockeypuck,unspecified,unspecified,14.575,1,14,314
subjCode,workerId,assignmentId,hitId,banana,peapod,unspecified,unspecified,15.322,2,15,236
subjCode,workerId,assignmentId,hitId,banana,tank,unspecified,unspecified,16.002,3,16,168
subjCode,workerId,assignmentId,hitId,baseball,celery,unspecified,unspecified,16.727,4,17,212
subjCode,workerId,assignmentId,hitId,baseball,snowflake,unspecified,unspecified,17.479,5,18,240
subjCode,workerId,assignmentId,hitId,baseballmitt,egg,unspecified,unspecified,18.271,6,19,273
subjCode,workerId,assignmentId,hitId,baseballmitt,smokedetector,unspecified,unspecified,19.028,7,20,243
subjCode,workerId,assignmentId,hitId,basketball,celery,unspecified,unspecified,19.746,6,21,203
subjCode,workerId,assignmentId,hitId,basketball,corncob,unspecified,unspecified,20.419,5,22,161
subjCode,workerId,assignmentId,hitId,basketball,mailbox,unspecified,unspecified,21.07,4,23,132
subjCode,workerId,assignmentId,hitId,basketball,weddingcake,unspecified,unspecified,21.735,3,24,155
subjCode,workerId,assignmentId,hitId,bear,noentrysign,unspecified,unspecified,22.47,2,25,222
subjCode,workerId,assignmentId,hitId,bear,speaker,unspecified,unspecified,23.181,1,26,199
subjCode,workerId,assignmentId,hitId,bison,garlic,unspecified,unspecified,23.747,2,27,58
subjCode,workerId,assignmentId,hitId,bison,tiger,unspecified,unspecified,24.324,3,28,66
subjCode,workerId,assignmentId,hitId,blueberries,rhinoceros,unspecified,unspecified,24.909,4,29,70
subjCode,workerId,assignmentId,hitId,blueberries,smokedetector,unspecified,unspecified,25.542,5,30,115
subjCode,workerId,assignmentId,hitId,blueberries,tooth,unspecified,unspecified,26.28,6,31,211
subjCode,workerId,assignmentId,hitId,blueberries,washingmachine,unspecified,unspecified,26.917,7,32,125
subjCode,workerId,assignmentId,hitId,bulldozer,chinesefoodcarton,unspecified,unspecified,27.517,6,33,87
subjCode,workerId,assignmentId,hitId,cactus,firehydrant,unspecified,unspecified,28.42,4,34,390
subjCode,workerId,assignmentId,hitId,cactus,iguana,unspecified,unspecified,29.293,2,35,359
subjCode,workerId,assignmentId,hitId,cactus,lime,unspecified,unspecified,29.906,1,36,104
subjCode,workerId,assignmentId,hitId,anvil,record,unspecified,unspecified,2.19,1,1,425
subjCode,workerId,assignmentId,hitId,anvil,smokedetector,unspecified,unspecified,2.967,2,2,258
subjCode,workerId,assignmentId,hitId,apricot,coconut,unspecified,unspecified,3.751,3,3,267
subjCode,workerId,assignmentId,hitId,apricot,cucumber,unspecified,unspecified,4.433,4,4,169
subjCode,workerId,assignmentId,hitId,apricot,piano,unspecified,unspecified,5.149,5,5,203
subjCode,workerId,assignmentId,hitId,apricot,potato,unspecified,unspecified,5.929,6,6,270
subjCode,workerId,assignmentId,hitId,apricot,rubberducky,unspecified,unspecified,7.111,7,7,666
subjCode,workerId,assignmentId,hitId,artichoke,television,unspecified,unspecified,8.489,6,8,864
subjCode,workerId,assignmentId,hitId,avocado,ketchup,unspecified,unspecified,17.672,3,9,8667
subjCode,workerId,assignmentId,hitId,avocado,raspberry,unspecified,unspecified,19.211,4,10,1023
subjCode,workerId,assignmentId,hitId,avocado,tire,unspecified,unspecified,20.637,5,11,916
subjCode,workerId,assignmentId,hitId,baseball,cactus,unspecified,unspecified,22.029,4,12,878
subjCode,workerId,assignmentId,hitId,baseballmitt,moviecamera,unspecified,unspecified,22.946,2,13,379
subjCode,workerId,assignmentId,hitId,basketball,polarbear,unspecified,unspecified,23.788,1,14,325
subjCode,workerId,assignmentId,hitId,bear,crocodile,unspecified,unspecified,25.54,6,15,1234
subjCode,workerId,assignmentId,hitId,binoculars,grapefruithalves,unspecified,unspecified,26.469,5,16,410
subjCode,workerId,assignmentId,hitId,binoculars,greekcolumn,unspecified,unspecified,27.134,3,17,147
subjCode,workerId,assignmentId,hitId,anvil,chick,unspecified,unspecified,4.009,2,1,1438
subjCode,workerId,assignmentId,hitId,anvil,wholewatermelon,unspecified,unspecified,4.85,3,2,324
subjCode,workerId,assignmentId,hitId,apricot,baseballmitt,unspecified,unspecified,5.485,3,3,118
subjCode,workerId,assignmentId,hitId,apricot,elephant,unspecified,unspecified,6.079,3,4,78
subjCode,workerId,assignmentId,hitId,artichoke,penguin,unspecified,unspecified,7.333,4,5,732
subjCode,workerId,assignmentId,hitId,artichoke,santahat,unspecified,unspecified,8.439,5,6,593
subjCode,workerId,assignmentId,hitId,artichoke,trafficcone,unspecified,unspecified,9.795,6,7,843
subjCode,workerId,assignmentId,hitId,avocado,firemanhat,unspecified,unspecified,11.157,6,8,848
subjCode,workerId,assignmentId,hitId,avocado,santahat,unspecified,unspecified,12.021,5,9,354
subjCode,workerId,assignmentId,hitId,avocado,television,unspecified,unspecified,20.017,1,10,7485
subjCode,workerId,assignmentId,hitId,banana,greenbeans,unspecified,unspecified,21.416,3,11,889
subjCode,workerId,assignmentId,hitId,banana,noentrysign,unspecified,unspecified,22.527,4,12,596
subjCode,workerId,assignmentId,hitId,baseball,football,unspecified,unspecified,23.589,5,13,549
subjCode,workerId,assignmentId,hitId,baseball,ketchup,unspecified,unspecified,24.492,6,14,388
subjCode,workerId,assignmentId,hitId,baseball,moviecamera,unspecified,unspecified,25.547,7,15,536
subjCode,workerId,assignmentId,hitId,baseballmitt,greenbeans,unspecified,unspecified,27.061,2,16,1002
subjCode,workerId,assignmentId,hitId,baseballmitt,piano,unspecified,unspecified,28.312,1,17,740
subjCode,workerId,assignmentId,hitId,basketball,clarinet,unspecified,unspecified,29.091,2,18,258
subjCode,workerId,assignmentId,hitId,basketball,handicappedparking,unspecified,unspecified,29.664,3,19,50
subjCode,workerId,assignmentId,hitId,anvil,binoculars,unspecified,unspecified,1.841,￿,1,-1
subjCode,workerId,assignmentId,hitId,anvil,rhinoceros,unspecified,unspecified,3.266,￿,2,-1
subjCode,workerId,assignmentId,hitId,anvil,santahat,unspecified,unspecified,4.873,￿,3,-1
subjCode,workerId,assignmentId,hitId,anvil,baseball,unspecified,unspecified,2.13,1,1,652
subjCode,workerId,assignmentId,hitId,apricot,frog,unspecified,unspecified,3.839,1,2,1198
subjCode,workerId,assignmentId,hitId,apricot,tire,unspecified,unspecified,5.241,1,3,891
subjCode,workerId,assignmentId,hitId,artichoke,basketball,unspecified,unspecified,5.871,1,4,113
subjCode,workerId,assignmentId,hitId,artichoke,piano,unspecified,unspecified,6.386,1,5,4
subjCode,workerId,assignmentId,hitId,artichoke,raspberry,unspecified,unspecified,7.15,1,6,246
subjCode,workerId,assignmentId,hitId,avocado,potato,unspecified,unspecified,7.699,1,7,29
subjCode,workerId,assignmentId,hitId,banana,chick,unspecified,unspecified,8.224,1,8,9
subjCode,workerId,assignmentId,hitId,banana,greenbeans,unspecified,unspecified,8.993,2,9,254
subjCode,workerId,assignmentId,hitId,banana,lemon,unspecified,unspecified,10.485,2,10,976
subjCode,workerId,assignmentId,hitId,baseball,crosswalksign,unspecified,unspecified,11.764,3,11,765
subjCode,workerId,assignmentId,hitId,baseball,pumpkin,unspecified,unspecified,15.725,3,12,3448
subjCode,workerId,assignmentId,hitId,baseball,trumpet,unspecified,unspecified,16.869,4,13,631
subjCode,workerId,assignmentId,hitId,baseballmitt,mailbox,unspecified,unspecified,19.467,5,14,2086
subjCode,workerId,assignmentId,hitId,baseballmitt,tennisball,unspecified,unspecified,22.333,7,15,2353
subjCode,workerId,assignmentId,hitId,basketball,cactus,unspecified,unspecified,25.13,6,16,2283
subjCode,workerId,assignmentId,hitId,anvil,binoculars,unspecified,unspecified,1.733,4,1,1007
subjCode,workerId,assignmentId,hitId,anvil,crosswalksign,unspecified,unspecified,3.093,3,2,345
subjCode,workerId,assignmentId,hitId,anvil,orange,unspecified,unspecified,4.472,2,3,367
subjCode,workerId,assignmentId,hitId,apricot,cigar,unspecified,unspecified,5.678,1,4,192
subjCode,workerId,assignmentId,hitId,artichoke,baseballmitt,unspecified,unspecified,7.046,5,5,355
subjCode,workerId,assignmentId,hitId,artichoke,driedcorn,unspecified,unspecified,8.935,6,6,877
subjCode,workerId,assignmentId,hitId,artichoke,football,unspecified,unspecified,10.493,7,7,542
subjCode,workerId,assignmentId,hitId,artichoke,garlic,unspecified,unspecified,12.227,5,8,718
subjCode,workerId,assignmentId,hitId,artichoke,tennisball,unspecified,unspecified,13.459,4,9,218
subjCode,workerId,assignmentId,hitId,anvil,greekcolumn,unspecified,unspecified,29.736,2,1,2488
subjCode,workerId,assignmentId,hitId,anvil,strawberry,unspecified,unspecified,31.112,3,2,359
subjCode,workerId,assignmentId,hitId,apricot,raspberry,unspecified,unspecified,32.683,4,3,555
subjCode,workerId,assignmentId,hitId,apricot,tiger,unspecified,unspecified,34.6,5,4,906
subjCode,workerId,assignmentId,hitId,anvil,coconut,unspecified,unspecified,1.683,1,1,440
subjCode,workerId,assignmentId,hitId,apricot,bear,unspecified,unspecified,2.836,2,2,139
subjCode,workerId,assignmentId,hitId,apricot,santahat,unspecified,unspecified,3.958,3,3,110
subjCode,workerId,assignmentId,hitId,apricot,violin,unspecified,unspecified,5.002,4,4,31
subjCode,workerId,assignmentId,hitId,artichoke,rubberducky,unspecified,unspecified,6.243,5,5,225
subjCode,workerId,assignmentId,hitId,avocado,cigar,unspecified,unspecified,7.528,6,6,273
subjCode,workerId,assignmentId,hitId,banana,hockeypuck,unspecified,unspecified,8.622,7,7,78
subjCode,workerId,assignmentId,hitId,anvil,carrot,unspecified,unspecified,1.428,1,1,451
subjCode,workerId,assignmentId,hitId,anvil,eggplant,unspecified,unspecified,3.429,1,2,985
subjCode,workerId,assignmentId,hitId,anvil,grapefruithalves,unspecified,unspecified,4.65,3,3,204
subjCode,workerId,assignmentId,hitId,anvil,lemon,unspecified,unspecified,5.9,4,4,237
subjCode,workerId,assignmentId,hitId,anvil,wholewatermelon,unspecified,unspecified,7.06,7,5,147
subjCode,workerId,assignmentId,hitId,apricot,iguana,unspecified,unspecified,8.309,6,6,241
subjCode,workerId,assignmentId,hitId,artichoke,penguin,unspecified,unspecified,9.329,5,7,8
subjCode,workerId,assignmentId,hitId,artichoke,piano,unspecified,unspecified,10.376,4,8,35
subjCode,workerId,assignmentId,hitId,banana,firehydrant,unspecified,unspecified,11.538,2,9,150
subjCode,workerId,assignmentId,hitId,banana,walkietalkie,unspecified,unspecified,12.618,5,10,67
subjCode,workerId,assignmentId,hitId,banana,wholewatermelon,unspecified,unspecified,14.024,7,11,389
subjCode,workerId,assignmentId,hitId,baseball,fox,unspecified,unspecified,17.197,7,12,2161
subjCode,workerId,assignmentId,hitId,baseball,peapod,unspecified,unspecified,18.416,6,13,209
subjCode,workerId,assignmentId,hitId,baseball,walkietalkie,unspecified,unspecified,19.549,4,14,120
subjCode,workerId,assignmentId,hitId,anvil,trafficcone,unspecified,unspecified,9.37,1,1,5903
subjCode,workerId,assignmentId,hitId,apricot,rubberducky,unspecified,unspecified,11.157,2,2,769
subjCode,workerId,assignmentId,hitId,anvil,basketball,unspecified,unspecified,1.842,1,1,867
subjCode,workerId,assignmentId,hitId,anvil,chick,unspecified,unspecified,3.392,2,2,525
subjCode,workerId,assignmentId,hitId,anvil,frog,unspecified,unspecified,2.297,3,1,1508
subjCode,workerId,assignmentId,hitId,anvil,kiwihalf,unspecified,unspecified,1.448,1,1,600
subjCode,workerId,assignmentId,hitId,anvil,handicappedparking,unspecified,unspecified,3.935,1,1,2833
subjCode,workerId,assignmentId,hitId,anvil,bison,unspecified,unspecified,1.581,1,1,770
subjCode,workerId,assignmentId,hitId,anvil,hotdog,unspecified,unspecified,2.216,2,1,1317
subjCode,workerId,assignmentId,hitId,anvil,bulldozer,unspecified,unspecified,1.916,1,1,967
subjCode,workerId,assignmentId,hitId,anvil,lemon,unspecified,unspecified,30.839,1,2,27896
subjCode,workerId,assignmentId,hitId,apricot,fox,unspecified,unspecified,33.062,2,3,1206
subjCode,workerId,assignmentId,hitId,anvil,eggplant,unspecified,unspecified,165.729,1,1,164164
subjCode,workerId,assignmentId,hitId,anvil,weddingcake,unspecified,unspecified,179.414,1,2,12661
subjCode,workerId,assignmentId,hitId,apricot,eggplant,unspecified,unspecified,192.314,1,3,11883
subjCode,workerId,assignmentId,hitId,apricot,wholewatermelon,unspecified,unspecified,249.898,1,4,56560
subjCode,workerId,assignmentId,hitId,artichoke,baseballmitt,unspecified,unspecified,263.407,1,5,12488
subjCode,workerId,assignmentId,hitId,artichoke,crosswalksign,unspecified,unspecified,273.1,1,6,8674
subjCode,workerId,assignmentId,hitId,artichoke,football,unspecified,unspecified,346.046,1,7,71926
subjCode,workerId,assignmentId,hitId,banana,moviecamera,unspecified,unspecified,425.478,1,8,78414
subjCode,workerId,assignmentId,hitId,banana,television,unspecified,unspecified,470.552,1,9,44052
subjCode,workerId,assignmentId,hitId,banana,trumpet,unspecified,unspecified,483.206,1,10,11637
subjCode,workerId,assignmentId,hitId,baseball,iguana,unspecified,unspecified,489.185,1,11,4961
subjCode,workerId,assignmentId,hitId,baseball,tiger,unspecified,unspecified,497.682,1,12,7480
subjCode,workerId,assignmentId,hitId,anvil,mailbox,unspecified,unspecified,1.845,1,1,1050
subjCode,workerId,assignmentId,hitId,apricot,sideroadsign,unspecified,unspecified,4.103,4,2,1236
subjCode,workerId,assignmentId,hitId,anvil,piano,unspecified,unspecified,1.497,1,1,375
subjCode,workerId,assignmentId,hitId,anvil,crosswalksign,unspecified,unspecified,2.055,1,1,1218
subjCode,workerId,assignmentId,hitId,anvil,kiwihalf,unspecified,unspecified,4.032,1,2,960
subjCode,workerId,assignmentId,hitId,anvil,lion,unspecified,unspecified,5.414,2,3,361
subjCode,workerId,assignmentId,hitId,apricot,cactus,unspecified,unspecified,7.85,4,4,1409
subjCode,workerId,assignmentId,hitId,anvil,eggplant,unspecified,unspecified,1.989,1,1,1323
subjCode,workerId,assignmentId,hitId,anvil,ketchup,unspecified,unspecified,2.618,6,1,1034
subjCode,workerId,assignmentId,hitId,apricot,hockeypuck,unspecified,unspecified,4.139,7,2,497
subjCode,workerId,assignmentId,hitId,apricot,wreath,unspecified,unspecified,6.035,5,3,882
subjCode,workerId,assignmentId,hitId,artichoke,greenbeans,unspecified,unspecified,9.04,4,4,1987
subjCode,workerId,assignmentId,hitId,anvil,apricot,unspecified,unspecified,1.672,1,1,797
subjCode,workerId,assignmentId,hitId,anvil,moviecamera,unspecified,unspecified,2.731,2,2,28
subjCode,workerId,assignmentId,hitId,anvil,washingmachine,unspecified,unspecified,4.139,3,3,383
subjCode,workerId,assignmentId,hitId,apricot,washingmachine,unspecified,unspecified,5.441,2,4,284
subjCode,workerId,assignmentId,hitId,artichoke,chinesefoodcarton,unspecified,unspecified,6.79,4,5,334
subjCode,workerId,assignmentId,hitId,artichoke,crosswalksign,unspecified,unspecified,8.544,5,6,732
subjCode,workerId,assignmentId,hitId,artichoke,rhinoceros,unspecified,unspecified,9.719,6,7,154
subjCode,workerId,assignmentId,hitId,artichoke,sheep,unspecified,unspecified,10.949,7,8,201
subjCode,workerId,assignmentId,hitId,avocado,chick,unspecified,unspecified,12.205,1,9,236
subjCode,workerId,assignmentId,hitId,avocado,pinkflamingo,unspecified,unspecified,13.281,2,10,60
subjCode,workerId,assignmentId,hitId,anvil,coconut,unspecified,unspecified,2.867,2,1,1555
subjCode,workerId,assignmentId,hitId,apricot,camera,unspecified,unspecified,4.249,3,2,362
subjCode,workerId,assignmentId,hitId,apricot,elephant,unspecified,unspecified,5.519,2,3,254
subjCode,workerId,assignmentId,hitId,anvil,mailbox,unspecified,unspecified,3.543,2,1,1057
subjCode,workerId,assignmentId,hitId,anvil,camera,unspecified,unspecified,1.188,2,1,453
subjCode,workerId,assignmentId,hitId,anvil,tire,unspecified,unspecified,1.978,2,1,1161
subjCode,workerId,assignmentId,hitId,anvil,tomato,unspecified,unspecified,3.571,2,2,571
subjCode,workerId,assignmentId,hitId,anvil,basketball,unspecified,unspecified,1.383,2,1,443
subjCode,workerId,assignmentId,hitId,anvil,grapefruithalves,unspecified,unspecified,2.739,2,2,339
subjCode,workerId,assignmentId,hitId,apricot,avocado,unspecified,unspecified,1.908,2,1,1122
subjCode,workerId,assignmentId,hitId,artichoke,firemanhat,unspecified,unspecified,3.685,2,2,756
subjCode,workerId,assignmentId,hitId,anvil,crocodile,unspecified,unspecified,1.173,2,1,390
subjCode,workerId,assignmentId,hitId,apricot,cardinal,unspecified,unspecified,6.511,1,2,4320
subjCode,workerId,assignmentId,hitId,apricot,fox,unspecified,unspecified,7.793,2,3,263
subjCode,workerId,assignmentId,hitId,apricot,iguana,unspecified,unspecified,8.918,3,4,109
subjCode,workerId,assignmentId,hitId,artichoke,bulldozer,unspecified,unspecified,10.024,4,5,78
subjCode,workerId,assignmentId,hitId,artichoke,tennisball,unspecified,unspecified,11.115,5,6,57
subjCode,workerId,assignmentId,hitId,avocado,cactus,unspecified,unspecified,12.603,6,7,464
subjCode,workerId,assignmentId,hitId,avocado,penguin,unspecified,unspecified,14.977,7,8,1357
subjCode,workerId,assignmentId,hitId,banana,binoculars,unspecified,unspecified,16.059,6,9,54
subjCode,workerId,assignmentId,hitId,anvil,celery,unspecified,unspecified,1.318,1,1,405
subjCode,workerId,assignmentId,hitId,anvil,fireextinguisher,unspecified,unspecified,2.601,2,2,255
subjCode,workerId,assignmentId,hitId,apricot,clarinet,unspecified,unspecified,1.461,1,1,639
subjCode,workerId,assignmentId,hitId,artichoke,chinesefoodcarton,unspecified,unspecified,9.044,1,2,6560
subjCode,workerId,assignmentId,hitId,anvil,corncob,unspecified,unspecified,2.03,1,1,1147
subjCode,workerId,assignmentId,hitId,anvil,golfball,unspecified,unspecified,3.356,2,2,307
subjCode,workerId,assignmentId,hitId,apricot,carrot,unspecified,unspecified,4.605,3,3,236
subjCode,workerId,assignmentId,hitId,apricot,sheep,unspecified,unspecified,5.846,4,4,226
subjCode,workerId,assignmentId,hitId,artichoke,celery,unspecified,unspecified,7.588,5,5,724
subjCode,workerId,assignmentId,hitId,artichoke,elephant,unspecified,unspecified,10.098,6,6,1491
subjCode,workerId,assignmentId,hitId,artichoke,hockeypuck,unspecified,unspecified,12.245,7,7,1126
subjCode,workerId,assignmentId,hitId,artichoke,peapod,unspecified,unspecified,13.928,6,8,666
subjCode,workerId,assignmentId,hitId,artichoke,potato,unspecified,unspecified,16.184,1,9,1237
subjCode,workerId,assignmentId,hitId,artichoke,strawberry,unspecified,unspecified,18.895,2,10,1694
subjCode,workerId,assignmentId,hitId,avocado,orange,unspecified,unspecified,20.714,3,11,803
subjCode,workerId,assignmentId,hitId,anvil,pumpkin,unspecified,unspecified,4.363,1,1,3452
subjCode,workerId,assignmentId,hitId,apricot,bulldozer,unspecified,unspecified,5.964,2,2,576
subjCode,workerId,assignmentId,hitId,artichoke,strawberry,unspecified,unspecified,7.615,3,3,631
subjCode,workerId,assignmentId,hitId,artichoke,tennisball,unspecified,unspecified,9.627,4,4,989
subjCode,workerId,assignmentId,hitId,avocado,ketchup,unspecified,unspecified,11.501,5,5,854
subjCode,workerId,assignmentId,hitId,avocado,piano,unspecified,unspecified,12.885,6,6,364
subjCode,workerId,assignmentId,hitId,banana,kiwihalf,unspecified,unspecified,15.29,1,7,1373
subjCode,workerId,assignmentId,hitId,anvil,clarinet,unspecified,unspecified,1.278,1,1,508
subjCode,workerId,assignmentId,hitId,anvil,walkietalkie,unspecified,unspecified,1.525,1,1,458
subjCode,workerId,assignmentId,hitId,anvil,firetruck,unspecified,unspecified,1.671,1,1,801
subjCode,workerId,assignmentId,hitId,anvil,piano,unspecified,unspecified,1.449,1,1,515
subjCode,workerId,assignmentId,hitId,artichoke,baseballmitt,unspecified,unspecified,2.761,2,2,281
subjCode,workerId,assignmentId,hitId,artichoke,eggplant,unspecified,unspecified,4.078,3,3,292
subjCode,workerId,assignmentId,hitId,anvil,baseballmitt,unspecified,unspecified,3.944,1,1,383
subjCode,workerId,assignmentId,hitId,anvil,banana,unspecified,unspecified,4.108,1,1,2358
subjCode,workerId,assignmentId,hitId,anvil,lobster,unspecified,unspecified,5.383,2,2,230
subjCode,workerId,assignmentId,hitId,anvil,moviecamera,unspecified,unspecified,7.194,3,3,779
subjCode,workerId,assignmentId,hitId,anvil,raspberry,unspecified,unspecified,8.566,4,4,352
subjCode,workerId,assignmentId,hitId,apricot,egg,unspecified,unspecified,10.304,4,5,712
subjCode,workerId,assignmentId,hitId,anvil,chinesefoodcarton,unspecified,unspecified,1.888,1,1,446
subjCode,workerId,assignmentId,hitId,anvil,polarbear,unspecified,unspecified,3.55,1,2,638
subjCode,workerId,assignmentId,hitId,apricot,handicappedparking,unspecified,unspecified,5.277,3,3,702
subjCode,workerId,assignmentId,hitId,artichoke,baseballmitt,unspecified,unspecified,38.099,2,4,31805
subjCode,workerId,assignmentId,hitId,artichoke,cauliflower,unspecified,unspecified,39.72,3,5,599
subjCode,workerId,assignmentId,hitId,artichoke,lobster,unspecified,unspecified,42.859,4,6,2118
subjCode,workerId,assignmentId,hitId,anvil,artichoke,unspecified,unspecified,1.789,2,1,648
subjCode,workerId,assignmentId,hitId,anvil,camera,unspecified,unspecified,3.143,3,2,336
subjCode,workerId,assignmentId,hitId,anvil,record,unspecified,unspecified,1.728,1,1,491
subjCode,workerId,assignmentId,hitId,anvil,sheep,unspecified,unspecified,3.049,2,2,297
subjCode,workerId,assignmentId,hitId,anvil,clarinet,unspecified,unspecified,2.41,2,1,1123
subjCode,workerId,assignmentId,hitId,anvil,firemanhat,unspecified,unspecified,1.313,1,1,367
subjCode,workerId,assignmentId,hitId,apricot,zucchini,unspecified,unspecified,2.607,2,2,269
subjCode,workerId,assignmentId,hitId,artichoke,crosswalksign,unspecified,unspecified,3.919,3,3,291
subjCode,workerId,assignmentId,hitId,artichoke,rubberducky,unspecified,unspecified,5.215,1,4,271
subjCode,workerId,assignmentId,hitId,artichoke,tiger,unspecified,unspecified,6.324,1,5,83
subjCode,workerId,assignmentId,hitId,artichoke,wholewatermelon,unspecified,unspecified,8.329,3,6,969
subjCode,workerId,assignmentId,hitId,avocado,crosswalksign,unspecified,unspecified,10.073,4,7,718
subjCode,workerId,assignmentId,hitId,avocado,polarbear,unspecified,unspecified,11.661,5,8,563
subjCode,workerId,assignmentId,hitId,avocado,sideroadsign,unspecified,unspecified,12.954,2,9,268
subjCode,workerId,assignmentId,hitId,avocado,wreath,unspecified,unspecified,14.364,1,10,385
subjCode,workerId,assignmentId,hitId,banana,cactus,unspecified,unspecified,15.632,1,11,240
subjCode,workerId,assignmentId,hitId,banana,peapod,unspecified,unspecified,16.703,1,12,46
subjCode,workerId,assignmentId,hitId,baseball,cauliflower,unspecified,unspecified,18.482,1,13,732
subjCode,workerId,assignmentId,hitId,anvil,handicappedparking,unspecified,unspecified,2.21,1,1,1282
subjCode,workerId,assignmentId,hitId,anvil,potato,unspecified,unspecified,3.928,3,2,692
subjCode,workerId,assignmentId,hitId,apricot,clarinet,unspecified,unspecified,5.865,4,3,908
subjCode,workerId,assignmentId,hitId,anvil,elephant,unspecified,unspecified,7.452,1,1,6674
subjCode,workerId,assignmentId,hitId,anvil,firehydrant,unspecified,unspecified,9.23,2,2,763
subjCode,workerId,assignmentId,hitId,anvil,bison,unspecified,unspecified,2.867,1,1,1890
subjCode,workerId,assignmentId,hitId,anvil,crocodile,unspecified,unspecified,4.386,2,2,484
subjCode,workerId,assignmentId,hitId,anvil,santahat,unspecified,unspecified,7.459,7,3,2057
subjCode,workerId,assignmentId,hitId,artichoke,basketball,unspecified,unspecified,9.327,6,4,835
subjCode,workerId,assignmentId,hitId,artichoke,iguana,unspecified,unspecified,12.605,7,5,2257
subjCode,workerId,assignmentId,hitId,artichoke,rubberducky,unspecified,unspecified,17.121,7,6,3485
subjCode,workerId,assignmentId,hitId,anvil,wholewatermelon,unspecified,unspecified,2.974,1,1,1294
subjCode,workerId,assignmentId,hitId,apricot,clarinet,unspecified,unspecified,4.525,1,2,522
subjCode,workerId,assignmentId,hitId,apricot,coconut,unspecified,unspecified,6.117,1,3,555
subjCode,workerId,assignmentId,hitId,apricot,pinkflamingo,unspecified,unspecified,11.916,1,4,4775
subjCode,workerId,assignmentId,hitId,artichoke,egg,unspecified,unspecified,13.276,1,5,333
subjCode,workerId,assignmentId,hitId,artichoke,tomato,unspecified,unspecified,20.846,1,6,6542
subjCode,workerId,assignmentId,hitId,avocado,grapefruithalves,unspecified,unspecified,21.934,1,7,58
subjCode,workerId,assignmentId,hitId,banana,egg,unspecified,unspecified,23.066,1,8,105
subjCode,workerId,assignmentId,hitId,anvil,celery,unspecified,unspecified,1.294,1,1,569
subjCode,workerId,assignmentId,hitId,anvil,avocado,unspecified,unspecified,1.439,1,1,295
subjCode,workerId,assignmentId,hitId,anvil,greenbeans,unspecified,unspecified,1.628,1,2,174
subjCode,workerId,assignmentId,hitId,anvil,walkietalkie,unspecified,unspecified,1.834,1,3,197
subjCode,workerId,assignmentId,hitId,anvil,washingmachine,unspecified,unspecified,2.028,1,4,185
subjCode,workerId,assignmentId,hitId,apricot,elephant,unspecified,unspecified,2.24,1,5,207
subjCode,workerId,assignmentId,hitId,apricot,fox,unspecified,unspecified,2.474,1,6,223
subjCode,workerId,assignmentId,hitId,apricot,rubberducky,unspecified,unspecified,3.367,1,7,880
subjCode,workerId,assignmentId,hitId,artichoke,clarinet,unspecified,unspecified,3.568,1,8,190
subjCode,workerId,assignmentId,hitId,artichoke,pumpkin,unspecified,unspecified,3.756,2,9,176
subjCode,workerId,assignmentId,hitId,artichoke,washingmachine,unspecified,unspecified,3.911,1,10,149
subjCode,workerId,assignmentId,hitId,avocado,celery,unspecified,unspecified,4.035,2,11,114
subjCode,workerId,assignmentId,hitId,banana,golfball,unspecified,unspecified,4.172,1,12,125
subjCode,workerId,assignmentId,hitId,baseball,raspberry,unspecified,unspecified,4.306,2,13,130
subjCode,workerId,assignmentId,hitId,baseball,record,unspecified,unspecified,4.462,1,14,149
subjCode,workerId,assignmentId,hitId,baseballmitt,chick,unspecified,unspecified,4.569,2,15,87
subjCode,workerId,assignmentId,hitId,baseballmitt,driedcorn,unspecified,unspecified,4.72,1,16,132
subjCode,workerId,assignmentId,hitId,baseballmitt,elephant,unspecified,unspecified,4.864,2,17,140
subjCode,workerId,assignmentId,hitId,baseballmitt,firehydrant,unspecified,unspecified,5.043,1,18,175
subjCode,workerId,assignmentId,hitId,baseballmitt,tomato,unspecified,unspecified,5.185,2,19,137
subjCode,workerId,assignmentId,hitId,basketball,iguana,unspecified,unspecified,5.347,1,20,154
subjCode,workerId,assignmentId,hitId,binoculars,strawberry,unspecified,unspecified,5.474,2,21,122
subjCode,workerId,assignmentId,hitId,bison,golfball,unspecified,unspecified,5.633,1,22,146
subjCode,workerId,assignmentId,hitId,bison,hotdog,unspecified,unspecified,5.711,2,23,65
subjCode,workerId,assignmentId,hitId,bison,rubberducky,unspecified,unspecified,5.92,1,24,201
subjCode,workerId,assignmentId,hitId,blueberries,hotdog,unspecified,unspecified,5.984,2,25,59
subjCode,workerId,assignmentId,hitId,blueberries,orange,unspecified,unspecified,6.159,1,26,144
subjCode,workerId,assignmentId,hitId,blueberries,tire,unspecified,unspecified,6.272,2,27,110
subjCode,workerId,assignmentId,hitId,bulldozer,crosswalksign,unspecified,unspecified,6.457,1,28,181
subjCode,workerId,assignmentId,hitId,bulldozer,zucchini,unspecified,unspecified,6.54,2,29,78
subjCode,workerId,assignmentId,hitId,cactus,camera,unspecified,unspecified,6.697,1,30,145
subjCode,workerId,assignmentId,hitId,cactus,greekcolumn,unspecified,unspecified,6.807,2,31,105
subjCode,workerId,assignmentId,hitId,cactus,potato,unspecified,unspecified,6.953,1,32,142
subjCode,workerId,assignmentId,hitId,camera,firetruck,unspecified,unspecified,7.073,2,33,113
subjCode,workerId,assignmentId,hitId,cardinal,corncob,unspecified,unspecified,8.136,3,34,1055
subjCode,workerId,assignmentId,hitId,cardinal,lemon,unspecified,unspecified,8.234,4,35,90
subjCode,workerId,assignmentId,hitId,cardinal,pumpkin,unspecified,unspecified,8.303,3,36,54
subjCode,workerId,assignmentId,hitId,carrot,corncob,unspecified,unspecified,8.426,4,37,106
subjCode,workerId,assignmentId,hitId,carrot,fireextinguisher,unspecified,unspecified,8.485,3,38,49
subjCode,workerId,assignmentId,hitId,carrot,lime,unspecified,unspecified,8.611,4,39,114
subjCode,workerId,assignmentId,hitId,carrot,wholewatermelon,unspecified,unspecified,8.692,3,40,58
subjCode,workerId,assignmentId,hitId,cauliflower,egg,unspecified,unspecified,8.779,4,41,76
subjCode,workerId,assignmentId,hitId,cauliflower,eggplant,unspecified,unspecified,8.863,3,42,74
subjCode,workerId,assignmentId,hitId,celery,grapefruithalves,unspecified,unspecified,8.959,4,43,89
subjCode,workerId,assignmentId,hitId,celery,strawberry,unspecified,unspecified,9.043,3,44,71
subjCode,workerId,assignmentId,hitId,cherries,lemon,unspecified,unspecified,9.16,4,45,113
subjCode,workerId,assignmentId,hitId,cherries,penguin,unspecified,unspecified,9.241,3,46,71
subjCode,workerId,assignmentId,hitId,chick,tiger,unspecified,unspecified,9.363,4,47,118
subjCode,workerId,assignmentId,hitId,chick,tomato,unspecified,unspecified,9.442,3,48,70
subjCode,workerId,assignmentId,hitId,chinesefoodcarton,pinkflamingo,unspecified,unspecified,9.544,4,49,93
subjCode,workerId,assignmentId,hitId,chinesefoodcarton,pumpkin,unspecified,unspecified,9.668,4,50,107
subjCode,workerId,assignmentId,hitId,clarinet,firemanhat,unspecified,unspecified,9.735,3,51,60
subjCode,workerId,assignmentId,hitId,clarinet,santahat,unspecified,unspecified,9.859,4,52,92
subjCode,workerId,assignmentId,hitId,clarinet,weddingcake,unspecified,unspecified,9.939,3,53,63
subjCode,workerId,assignmentId,hitId,corncob,cucumber,unspecified,unspecified,10.041,4,54,98
subjCode,workerId,assignmentId,hitId,corncob,mailbox,unspecified,unspecified,10.208,4,55,164
subjCode,workerId,assignmentId,hitId,crocodile,frog,unspecified,unspecified,10.257,3,56,46
subjCode,workerId,assignmentId,hitId,crocodile,swan,unspecified,unspecified,10.384,4,57,95
subjCode,workerId,assignmentId,hitId,crocodile,tomato,unspecified,unspecified,10.455,3,58,57
subjCode,workerId,assignmentId,hitId,crosswalksign,football,unspecified,unspecified,10.59,4,59,130
subjCode,workerId,assignmentId,hitId,cucumber,stocking,unspecified,unspecified,10.635,3,60,35
subjCode,workerId,assignmentId,hitId,driedcorn,stocking,unspecified,unspecified,10.759,4,61,120
subjCode,workerId,assignmentId,hitId,egg,pinkflamingo,unspecified,unspecified,10.835,3,62,68
subjCode,workerId,assignmentId,hitId,eggplant,firetruck,unspecified,unspecified,11.061,3,63,219
subjCode,workerId,assignmentId,hitId,eggplant,snowflake,unspecified,unspecified,11.21,4,64,140
subjCode,workerId,assignmentId,hitId,eggplant,tire,unspecified,unspecified,11.325,3,65,106
subjCode,workerId,assignmentId,hitId,elephant,hockeypuck,unspecified,unspecified,11.457,4,66,128
subjCode,workerId,assignmentId,hitId,elephant,rhinoceros,unspecified,unspecified,11.557,3,67,97
subjCode,workerId,assignmentId,hitId,elephant,toilet,unspecified,unspecified,11.689,4,68,125
subjCode,workerId,assignmentId,hitId,fireextinguisher,trumpet,unspecified,unspecified,11.759,3,69,49
subjCode,workerId,assignmentId,hitId,firehydrant,stocking,unspecified,unspecified,11.898,4,70,125
subjCode,workerId,assignmentId,hitId,firetruck,lime,unspecified,unspecified,12.022,3,71,114
subjCode,workerId,assignmentId,hitId,firetruck,speaker,unspecified,unspecified,12.154,4,72,120
subjCode,workerId,assignmentId,hitId,football,television,unspecified,unspecified,12.272,3,73,112
subjCode,workerId,assignmentId,hitId,football,turtle,unspecified,unspecified,12.423,4,74,148
subjCode,workerId,assignmentId,hitId,football,washingmachine,unspecified,unspecified,12.533,3,75,98
subjCode,workerId,assignmentId,hitId,fox,television,unspecified,unspecified,12.665,4,76,127
subjCode,workerId,assignmentId,hitId,fox,tomato,unspecified,unspecified,12.757,3,77,74
subjCode,workerId,assignmentId,hitId,garlic,lion,unspecified,unspecified,12.879,4,78,115
subjCode,workerId,assignmentId,hitId,garlic,peapod,unspecified,unspecified,12.971,3,79,81
subjCode,workerId,assignmentId,hitId,golfball,stocking,unspecified,unspecified,13.081,4,80,97
subjCode,workerId,assignmentId,hitId,golfball,watermelonslice,unspecified,unspecified,13.16,3,81,68
subjCode,workerId,assignmentId,hitId,grapefruithalves,smokedetector,unspecified,unspecified,13.295,4,82,106
subjCode,workerId,assignmentId,hitId,grapefruithalves,walkietalkie,unspecified,unspecified,13.35,3,83,49
subjCode,workerId,assignmentId,hitId,greenbeans,potato,unspecified,unspecified,13.591,3,84,230
subjCode,workerId,assignmentId,hitId,greenbeans,record,unspecified,unspecified,13.717,4,85,116
subjCode,workerId,assignmentId,hitId,hockeypuck,swan,unspecified,unspecified,13.822,3,86,97
subjCode,workerId,assignmentId,hitId,hockeypuck,walkietalkie,unspecified,unspecified,13.997,4,87,171
subjCode,workerId,assignmentId,hitId,ketchup,penguin,unspecified,unspecified,14.133,3,88,130
subjCode,workerId,assignmentId,hitId,kiwihalf,rhinoceros,unspecified,unspecified,14.286,4,89,148
subjCode,workerId,assignmentId,hitId,kiwihalf,smokedetector,unspecified,unspecified,14.416,3,90,128
subjCode,workerId,assignmentId,hitId,kiwihalf,tennisball,unspecified,unspecified,14.571,4,91,152
subjCode,workerId,assignmentId,hitId,lime,polarbear,unspecified,unspecified,14.698,3,92,123
subjCode,workerId,assignmentId,hitId,lime,violin,unspecified,unspecified,14.849,4,93,141
subjCode,workerId,assignmentId,hitId,lime,watermelonslice,unspecified,unspecified,14.999,3,94,141
subjCode,workerId,assignmentId,hitId,lime,weddingcake,unspecified,unspecified,15.139,4,95,134
subjCode,workerId,assignmentId,hitId,lime,wreath,unspecified,unspecified,15.226,3,96,83
subjCode,workerId,assignmentId,hitId,lobster,rubberducky,unspecified,unspecified,15.394,4,97,159
subjCode,workerId,assignmentId,hitId,lobster,tennisball,unspecified,unspecified,15.601,3,98,201
subjCode,workerId,assignmentId,hitId,mailbox,tooth,unspecified,unspecified,15.773,4,99,169
subjCode,workerId,assignmentId,hitId,moviecamera,rubberducky,unspecified,unspecified,15.883,3,100,101
subjCode,workerId,assignmentId,hitId,moviecamera,violin,unspecified,unspecified,16.043,4,101,156
subjCode,workerId,assignmentId,hitId,peapod,penguin,unspecified,unspecified,16.149,3,102,98
subjCode,workerId,assignmentId,hitId,peapod,wholewatermelon,unspecified,unspecified,16.298,4,103,146
subjCode,workerId,assignmentId,hitId,penguin,pumpkin,unspecified,unspecified,16.416,3,104,112
subjCode,workerId,assignmentId,hitId,piano,sheep,unspecified,unspecified,16.567,4,105,146
subjCode,workerId,assignmentId,hitId,piano,walkietalkie,unspecified,unspecified,16.668,3,106,93
subjCode,workerId,assignmentId,hitId,pinkflamingo,schoolbus,unspecified,unspecified,16.798,4,107,126
subjCode,workerId,assignmentId,hitId,pinkflamingo,walkietalkie,unspecified,unspecified,16.899,3,108,96
subjCode,workerId,assignmentId,hitId,polarbear,record,unspecified,unspecified,17.37,4,109,462
subjCode,workerId,assignmentId,hitId,polarbear,turtle,unspecified,unspecified,17.515,3,110,135
subjCode,workerId,assignmentId,hitId,pumpkin,record,unspecified,unspecified,17.922,4,111,397
subjCode,workerId,assignmentId,hitId,raspberry,tire,unspecified,unspecified,18.089,3,112,148
subjCode,workerId,assignmentId,hitId,record,strawberry,unspecified,unspecified,18.445,3,113,351
subjCode,workerId,assignmentId,hitId,rubberducky,tank,unspecified,unspecified,18.717,3,114,262
subjCode,workerId,assignmentId,hitId,smokedetector,tire,unspecified,unspecified,19.019,3,115,296
subjCode,workerId,assignmentId,hitId,swan,trumpet,unspecified,unspecified,19.272,3,116,239
subjCode,workerId,assignmentId,hitId,swan,zucchini,unspecified,unspecified,19.658,3,117,380
subjCode,workerId,assignmentId,hitId,tennisball,trafficcone,unspecified,unspecified,20.019,3,118,349
subjCode,workerId,assignmentId,hitId,trafficcone,walkietalkie,unspecified,unspecified,21.372,3,119,1344
subjCode,workerId,assignmentId,hitId,watermelonslice,zucchini,unspecified,unspecified,24.102,3,120,2713
subjCode,workerId,assignmentId,hitId,anvil,crocodile,unspecified,unspecified,21.578,1,1,20134
subjCode,workerId,assignmentId,hitId,anvil,binoculars,unspecified,unspecified,1.532,1,1,431
subjCode,workerId,assignmentId,hitId,anvil,firetruck,unspecified,unspecified,5.528,1,1,4250
subjCode,workerId,assignmentId,hitId,anvil,football,unspecified,unspecified,7.498,1,2,943
subjCode,workerId,assignmentId,hitId,anvil,driedcorn,unspecified,unspecified,2.141,1,1,1285
subjCode,workerId,assignmentId,hitId,anvil,greenbeans,unspecified,unspecified,3.539,1,2,371
subjCode,workerId,assignmentId,hitId,apricot,carrot,unspecified,unspecified,4.971,1,3,411
subjCode,workerId,assignmentId,hitId,anvil,egg,unspecified,unspecified,1.772,1,1,797
subjCode,workerId,assignmentId,hitId,anvil,cactus,unspecified,unspecified,2.258,1,1,873
subjCode,workerId,assignmentId,hitId,anvil,moviecamera,unspecified,unspecified,3.623,2,2,352
subjCode,workerId,assignmentId,hitId,anvil,snowflake,unspecified,unspecified,1.465,1,1,663
subjCode,workerId,assignmentId,hitId,anvil,potato,unspecified,unspecified,1.999,1,1,1116
subjCode,workerId,assignmentId,hitId,anvil,artichoke,unspecified,unspecified,1.795,1,1,786
subjCode,workerId,assignmentId,hitId,anvil,tiger,unspecified,unspecified,1.724,1,1,467
subjCode,workerId,assignmentId,hitId,anvil,potato,unspecified,unspecified,1.341,1,1,356
subjCode,workerId,assignmentId,hitId,apricot,firemanhat,unspecified,unspecified,1.106,1,1,309
subjCode,workerId,assignmentId,hitId,anvil,clarinet,unspecified,unspecified,1.484,1,1,481
subjCode,workerId,assignmentId,hitId,anvil,cucumber,unspecified,unspecified,3.443,1,2,916
subjCode,workerId,assignmentId,hitId,anvil,corncob,unspecified,unspecified,1.082,1,1,264
subjCode,workerId,assignmentId,hitId,anvil,television,unspecified,unspecified,1.03,1,1,298
subjCode,workerId,assignmentId,hitId,anvil,bison,unspecified,unspecified,1.307,1,1,457
subjCode,workerId,assignmentId,hitId,anvil,coconut,unspecified,unspecified,2.733,2,2,363
subjCode,workerId,assignmentId,hitId,anvil,greekcolumn,unspecified,unspecified,1.38,1,1,425
subjCode,workerId,assignmentId,hitId,apricot,chinesefoodcarton,unspecified,unspecified,1.523,1,1,255
subjCode,workerId,assignmentId,hitId,apricot,toilet,unspecified,unspecified,4.605,2,2,2010
subjCode,workerId,assignmentId,hitId,artichoke,football,unspecified,unspecified,6.788,2,3,1101
subjCode,workerId,assignmentId,hitId,avocado,washingmachine,unspecified,unspecified,8.446,2,4,603
subjCode,workerId,assignmentId,hitId,banana,bulldozer,unspecified,unspecified,10.006,3,5,467
subjCode,workerId,assignmentId,hitId,banana,elephant,unspecified,unspecified,11.584,4,6,491
subjCode,workerId,assignmentId,hitId,anvil,cucumber,unspecified,unspecified,1.357,1,1,476
subjCode,workerId,assignmentId,hitId,anvil,greenbeans,unspecified,unspecified,4.055,1,1,674
subjCode,workerId,assignmentId,hitId,anvil,cucumber,unspecified,unspecified,2.759,1,1,1807
subjCode,workerId,assignmentId,hitId,anvil,firehydrant,unspecified,unspecified,5.337,1,2,1478
subjCode,workerId,assignmentId,hitId,anvil,speaker,unspecified,unspecified,7.101,2,3,672
subjCode,workerId,assignmentId,hitId,anvil,tooth,unspecified,unspecified,8.906,3,4,721
subjCode,workerId,assignmentId,hitId,artichoke,cauliflower,unspecified,unspecified,10.925,3,5,940
subjCode,workerId,assignmentId,hitId,avocado,blueberries,unspecified,unspecified,14.642,4,6,2626
subjCode,workerId,assignmentId,hitId,banana,egg,unspecified,unspecified,16.396,3,7,658
subjCode,workerId,assignmentId,hitId,banana,handicappedparking,unspecified,unspecified,18.163,2,8,686
subjCode,workerId,assignmentId,hitId,banana,walkietalkie,unspecified,unspecified,19.75,2,9,486
subjCode,workerId,assignmentId,hitId,anvil,lime,unspecified,unspecified,1.665,1,1,819
